Folder: bmm-standards/Data/Br (part 2)

File: Br-K-NaBr.xdi
# XDI/1.0 BlueSky/1.13.0a3 BMM/2024-2.0-py310-tiled
# Beamline.name: BMM (06BM) -- Beamline for Materials Measurement (NIST)
# Beamline.collimation: paraboloid mirror, 5 nm Rh on 30 nm Pt
# Beamline.xray_source: NSLS-II three-pole wiggler
# Beamline.focusing: not in use
# Beamline.harmonic_rejection: flat mirror, Pt stripe, pitch = 7.0 mrad relative to beam
# Beamline.software: Bluesky 1.13.0a4, Ophyd 1.9.0, DataBroker 2.0.0b45, Python 3.11.6, 2024-2.3-py311-tiled
# Detector.I0: 25 cm N2, NSLS2 IC
# Detector.It: 25 cm N2, NSLS2 IC
# Detector.Ir: 25 cm N2, NSLS2 IC
# Element.edge: K
# Element.symbol: Br
# Element.reference: Br
# Element.reference_material: bromophenol blue
# Facility.name: NSLS-II
# Facility.energy: 3.0
# Facility.GUP: 318519
# Facility.SAF: 316542
# Facility.cycle: 2025-2
# Facility.current: 400.6
# Facility.mode: top-off
# Mono.name: Si(111)
# Mono.d_spacing: 3.13553
# Mono.encoder_resolution: 5e-06
# Mono.angle_offset: 16.0812
# Mono.direction: forward
# Mono.scan_type: step
# Mono.scan_mode: pseudo channel cut
# Sample.name: ...
# Sample.prep: 2 abs. lengths in PEG pellet. Double kapton containment.
# Sample.SDD_position: 205.0
# Sample.x: 66.174
# Sample.y: 176.101
# Sample.wheel_slot: 17
# Sample.wheel_ring: outer
# Scan.edge_energy: 13473.7
# Scan.experimenters: Malin Dixon Wilkins, John Bussey, John Mccloy, Gavin Mccloy, Seonjin Kim, Maxwell Mccloy, John McCloy
# Scan.start_time: 2025-07-09T21:36:03
# Scan.end_time: 2025-07-09T21:43:58
# Scan.uid: 323dbd41-cc1f-4ddc-9f77-a1e2b87073d8
# Scan.transient_id: 32774
# Scan.plot_hint: ln(I0/It)  --  ln($5/$6)
# Column.1: energy eV
# Column.2: requested_energy eV
# Column.3: measurement_time seconds
# Column.4: xmu
# Column.5: I0 nA
# Column.6: Itrans nA
# Column.7: Irefer nA
# //////////////////////////////////////////////////////////
# ...
# ----------------------------------------------------------
# energy requested_energy measurement_time xmu I0 It Ir
13273.8 13273.7 0.500000 -0.511075 61.0433 36.6168 29.5028
13293.8 13293.7 0.500000 -0.508328 60.668 36.4918 29.469
13313.7 13313.7 0.500000 -0.505534 60.4013 36.4331 29.4922
13333.7 13333.7 0.500000 -0.502723 60.0919 36.3485 29.483
13353.8 13353.7 0.500000 -0.500080 59.8995 36.328 29.5307
13373.7 13373.7 0.500000 -0.497762 59.5849 36.221 29.5008
13393.8 13393.7 0.500000 -0.495931 59.318 36.1249 29.4784
13413.8 13413.7 0.500000 -0.495036 59.0774 36.0106 29.426
13433.6 13433.7 0.500000 -0.496520 58.7767 35.7741 29.2406
13445.7 13445.7 0.500000 -0.500549 58.5963 35.5209 28.9988
13449.6 13449.7 0.500000 -0.503148 58.5201 35.3827 28.8554
13453.6 13453.7 0.500000 -0.507080 58.4785 35.2188 28.6702
13457.6 13457.7 0.500000 -0.513118 58.4187 34.971 28.3871
13461.7 13461.7 0.500000 -0.523149 58.3623 34.5885 27.941
13464.1 13464.2 0.500000 -0.532569 58.3194 34.239 27.518
13465.1 13465.2 0.500000 -0.537864 58.3069 34.0509 27.2823
13466.1 13466.2 0.500000 -0.544513 58.289 33.8149 26.9909
13467.1 13467.2 0.500000 -0.552454 58.2718 33.5375 26.6341
13468.1 13468.2 0.500000 -0.562099 58.2556 33.2064 26.203
13469.1 13469.2 0.500000 -0.573909 58.2021 32.7863 25.6572
13470.1 13470.2 0.500000 -0.589427 58.1625 32.2595 24.9481
13471.2 13471.2 0.500000 -0.610384 58.1822 31.6012 24.0086
13472.1 13472.2 0.500000 -0.640297 58.1987 30.6786 22.619
13473.2 13473.2 0.500000 -0.687296 58.1909 29.2662 20.3964
13474.2 13474.2 0.500000 -0.763772 58.1708 27.1021 16.8871
13475.2 13475.2 0.500000 -0.896116 58.1486 23.7334 12.1627
13476.2 13476.2 0.500000 -1.126185 58.1165 18.8453 7.601318
13477.2 13477.2 0.500000 -1.441207 58.0295 13.7322 5.072986
13478.2 13478.2 0.500000 -1.738948 57.9215 10.1771 4.211970
13479.2 13479.2 0.500000 -1.903488 57.6474 8.592220 3.895261
13480.1 13480.2 0.500000 -1.941509 57.6833 8.276824 3.655063
13481.2 13481.2 0.500000 -1.916765 57.9541 8.524010 3.445664
13482.2 13482.2 0.500000 -1.861077 58.0664 9.029621 3.377390
13483.2 13483.2 0.500000 -1.785006 58.0313 9.737421 3.514999
13484.2 13484.2 0.500000 -1.703697 57.9906 10.5548 3.800421
13485.2 13485.2 0.500000 -1.635990 58.0157 11.2991 4.133879
13486.2 13486.2 0.500000 -1.588018 58.0279 11.8568 4.455456
13487.2 13487.2 0.500000 -1.566246 58.0096 12.114 4.692488
13488.2 13488.2 0.500000 -1.576460 58.0012 11.9892 4.773318
13489.2 13489.2 0.500000 -1.616679 57.9811 11.5125 4.675201
13490.2 13490.2 0.500000 -1.670574 57.9589 10.9043 4.485348
13491.2 13491.2 0.500000 -1.721234 57.9059 10.3562 4.290603
13492.2 13492.2 0.500000 -1.754121 57.8596 10.0131 4.149139
13493.2 13493.2 0.500000 -1.767729 57.8809 9.881450 4.074932
13494.2 13494.2 0.500000 -1.765077 57.8918 9.909551 4.056883
13495.2 13495.2 0.500000 -1.751980 57.8892 10.0397 4.084233
13496.2 13496.2 0.500000 -1.733335 57.8685 10.225 4.137099
13497.2 13497.2 0.500000 -1.715342 57.851 10.4075 4.201469
13498.2 13498.2 0.500000 -1.700940 57.828 10.5543 4.261943
13499.7 13499.7 1.000000 -1.685046 115.53 21.4234 8.707473
13501.7 13501.7 1.000000 -1.670684 115.529 21.7331 8.979785
13503.8 13503.8 1.000000 -1.663754 115.471 21.8732 9.178140
13506.1 13506 1.000000 -1.668226 115.388 21.76 9.218753
13508.3 13508.3 1.000000 -1.676808 115.319 21.5612 9.168583
13510.6 13510.6 1.000000 -1.684569 115.236 21.379 9.072055
13513 13513 1.000000 -1.692544 115.486 21.2553 8.923725
13515.5 13515.5 1.000000 -1.696815 115.407 21.1502 8.742498
13518.1 13518 1.000000 -1.693838 115.321 21.1975 8.649471
13520.7 13520.7 1.000000 -1.686732 115.233 21.3324 8.662227
13523.4 13523.4 1.000000 -1.679166 115.137 21.4764 8.739849
13526.2 13526.2 1.000000 -1.671253 114.991 21.6196 8.849395
13529.1 13529 1.000000 -1.661284 114.899 21.8188 8.985639
13532 13532 1.000000 -1.651256 114.798 22.0192 9.117393
13535 13535 1.000000 -1.644182 114.502 22.1185 9.195530
13538.1 13538.1 1.000000 -1.641511 113.304 21.9454 9.150120
13541.3 13541.3 1.000000 -1.641781 114.073 22.0885 9.229514
13544.5 13544.5 1.000000 -1.643130 114.614 22.1634 9.271274
13547.9 13547.9 1.000000 -1.644371 114.49 22.1119 9.259609
13551.2 13551.2 1.000000 -1.644988 114.378 22.0767 9.257869
13554.7 13554.7 1.000000 -1.644763 114.144 22.0365 9.267220
13558.3 13558.3 1.000000 -1.644031 112.937 21.8195 9.206310
13561.9 13561.9 1.000000 -1.641689 114.066 22.0892 9.355619
13565.6 13565.6 1.000000 -1.638854 113.367 22.0161 9.361816
13569.4 13569.4 1.000000 -1.635899 113.82 22.1696 9.450748
13573.3 13573.2 1.000000 -1.633641 112.646 21.9904 9.387975
13577.2 13577.2 1.000000 -1.631392 113.621 22.2307 9.494965
13581.2 13581.2 1.000000 -1.629879 113.528 22.2461 9.498383
13585.3 13585.3 1.000000 -1.628941 113.381 22.2381 9.496672
13589.5 13589.4 1.000000 -1.627895 113.045 22.1954 9.480417
13593.7 13593.7 1.000000 -1.626813 112.557 22.1236 9.461259
13598 13598 1.000000 -1.626735 113.06 22.2242 9.520939
13602.4 13602.4 1.000000 -1.626750 112.917 22.1958 9.525149
13606.9 13606.9 1.000000 -1.626569 112.801 22.177 9.522459
13611.4 13611.4 1.000000 -1.625685 112.638 22.1645 9.507008
13616 13616 1.000000 -1.624594 112.524 22.1663 9.493104
13620.7 13620.7 1.000000 -1.623092 112.329 22.161 9.478534
13625.5 13625.5 1.000000 -1.621051 112.269 22.1945 9.490701
13630.3 13630.3 1.000000 -1.618781 112.051 22.2018 9.506717
13635.3 13635.2 1.000000 -1.616141 111.983 22.2469 9.552771
13640.3 13640.2 1.000000 -1.613291 111.833 22.2807 9.599108
[...]
13712.2 13712.2 1.000000 -1.590724 110.159 22.4479 9.869705
13718.3 13718.2 1.000000 -1.588929 109.995 22.4549 9.883821
13724.4 13724.4 1.000000 -1.587073 109.818 22.4603 9.903129
13730.6 13730.6 1.000000 -1.585349 109.619 22.4584 9.924539
13736.9 13736.9 1.000000 -1.583464 109.486 22.4733 9.951304
13743.3 13743.3 1.000000 -1.581719 109.305 22.4755 9.970422
13749.8 13749.7 1.000000 -1.579763 109.108 22.4789 9.980336
13756.3 13756.2 1.000000 -1.577842 108.929 22.4852 9.990240
13762.8 13762.9 1.000000 -1.575944 108.748 22.4905 10.0067
13769.6 13769.5 1.000000 -1.573840 108.538 22.4942 10.0294
13776.3 13776.3 1.000000 -1.571606 108.347 22.5049 10.0533
13783.1 13783.1 1.000000 -1.569372 108.142 22.5125 10.0779
13790 13790 1.000000 -1.567248 107.959 22.5223 10.102
13797 13797 1.000000 -1.564858 107.745 22.5314 10.1229
13804.1 13804 1.000000 -1.562695 107.555 22.5403 10.15
13811.2 13811.2 1.000000 -1.560493 107.348 22.5466 10.1781
13818.4 13818.4 1.000000 -1.558273 107.155 22.5561 10.2036
13825.7 13825.7 1.000000 -1.555964 106.895 22.5534 10.2236
13833.1 13833 1.000000 -1.553532 106.694 22.5658 10.2447
13840.5 13840.5 1.000000 -1.551255 106.498 22.5756 10.2619
13848 13848 1.000000 -1.548950 106.255 22.5761 10.2795
13855.6 13855.6 1.000000 -1.546473 105.919 22.5606 10.2904
13863.3 13863.2 1.000000 -1.544092 105.762 22.5809 10.3169
13871 13871 1.000000 -1.541558 105.454 22.5722 10.3329
13878.8 13878.8 1.000000 -1.539002 104.969 22.5259 10.3283
13886.7 13886.7 1.000000 -1.536506 104.45 22.4705 10.3255
13894.7 13894.7 1.000000 -1.533929 103.802 22.3886 10.3083
13902.8 13902.7 1.000000 -1.531446 103.691 22.4204 10.3484
13911 13910.9 1.000000 -1.528731 103.593 22.46 10.3886
13919 13919 1.000000 -1.526253 103.251 22.4415 10.4018
13927.3 13927.3 1.000000 -1.523607 103.134 22.4755 10.4404
13935.7 13935.7 1.000000 -1.521104 102.999 22.5023 10.477
13944.1 13944.1 1.000000 -1.518454 102.738 22.5048 10.4994
13952.6 13952.6 1.000000 -1.515852 102.486 22.5081 10.5248
13961.2 13961.2 1.000000 -1.513284 102.11 22.4831 10.5363
13969.9 13969.9 1.000000 -1.510677 94.8469 20.9384 9.829088
13978.7 13978.6 1.000000 -1.507706 102.126 22.6124 10.6371
13987.5 13987.4 1.000000 -1.505261 101.815 22.5989 10.6549
13996.3 13996.3 1.000000 -1.502460 101.778 22.6539 10.7061
14005.3 14005.2 1.000000 -1.499653 101.527 22.6616 10.7337
14014.3 14014.3 1.000000 -1.496911 101.277 22.6679 10.7624
14023.4 14023.4 1.000000 -1.494206 100.996 22.6661 10.7813
14032.6 14032.6 1.000000 -1.491310 100.743 22.6751 10.8063
14041.9 14041.9 1.000000 -1.488573 100.502 22.6827 10.8317
14051.2 14051.2 1.000000 -1.485869 100.273 22.6923 10.8614
14060.6 14060.6 1.000000 -1.483132 99.9678 22.6853 10.8834
14070.2 14070.1 1.000000 -1.480132 99.4851 22.6436 10.8854
14079.7 14079.7 1.000000 -1.477307 99.4024 22.6888 10.9323
14089.3 14089.3 1.000000 -1.474495 99.2948 22.728 10.9759
14099.1 14099.1 1.000000 -1.471720 98.9427 22.7104 10.9946
14108.9 14108.9 1.000000 -1.468872 98.3361 22.6355 10.9825
14118.8 14118.7 1.000000 -1.465664 93.1374 21.5077 10.4592
14128.7 14128.7 1.000000 -1.463033 98.3492 22.7711 11.1002
14138.8 14138.7 1.000000 -1.460173 98.078 22.7733 11.1267
14148.9 14148.8 1.000000 -1.457390 97.8068 22.7736 11.1537
14159 14159 1.000000 -1.454541 97.1786 22.6919 11.1383
14169.3 14169.3 1.000000 -1.451588 97.2194 22.7686 11.2009
14179.7 14179.6 1.000000 -1.448734 96.9907 22.78 11.2321
14190.1 14190 1.000000 -1.445778 96.7373 22.7877 11.2603
14200.6 14200.5 1.000000 -1.442880 96.4603 22.7884 11.2871
14211.1 14211 1.000000 -1.439853 96.1743 22.7897 11.3147
14216.4 14216.4 1.000000 -1.438396 96.0556 22.7948 11.329

File: Br-K-NaBrO3.xdi
# XDI/1.0 BlueSky/1.13.0a3 BMM/2024-2.0-py310-tiled
# Beamline.name: BMM (06BM) -- Beamline for Materials Measurement (NIST)
# Beamline.collimation: paraboloid mirror, 5 nm Rh on 30 nm Pt
# Beamline.xray_source: NSLS-II three-pole wiggler
# Beamline.focusing: not in use
# Beamline.harmonic_rejection: flat mirror, Pt stripe, pitch = 7.0 mrad relative to beam
# Beamline.software: Bluesky 1.13.0a4, Ophyd 1.9.0, DataBroker 2.0.0b45, Python 3.11.6, 2024-2.3-py311-tiled
# Detector.I0: 25 cm N2, NSLS2 IC
# Detector.It: 25 cm N2, NSLS2 IC
# Detector.Ir: 25 cm N2, NSLS2 IC
# Element.edge: K
# Element.symbol: Br
# Element.reference: Br
# Element.reference_material: bromophenol blue
# Facility.name: NSLS-II
# Facility.energy: 3.0
# Facility.GUP: 318519
# Facility.SAF: 316542
# Facility.cycle: 2025-2
# Facility.current: 399.7
# Facility.mode: top-off
# Mono.name: Si(111)
# Mono.d_spacing: 3.13553
# Mono.encoder_resolution: 5e-06
# Mono.angle_offset: 16.0812
# Mono.direction: forward
# Mono.scan_type: step
# Mono.scan_mode: pseudo channel cut
# Sample.name: ...
# Sample.prep: 2 abs. lengths in PEG pellet. Double kapton containment.
# Sample.SDD_position: 205.0
# Sample.x: 66.174
# Sample.y: 176.101
# Sample.wheel_slot: 18
# Sample.wheel_ring: outer
# Scan.edge_energy: 13473.7
# Scan.experimenters: Malin Dixon Wilkins, John Bussey, John Mccloy, Gavin Mccloy, Seonjin Kim, Maxwell Mccloy, John McCloy
# Scan.start_time: 2025-07-09T21:44:30
# Scan.end_time: 2025-07-09T21:52:15
# Scan.uid: 532ef967-8079-401c-a4c5-e7c183849fe5
# Scan.transient_id: 32778
# Scan.plot_hint: ln(I0/It)  --  ln($5/$6)
# Column.1: energy eV
# Column.2: requested_energy eV
# Column.3: measurement_time seconds
# Column.4: xmu
# Column.5: I0 nA
# Column.6: Itrans nA
# Column.7: Irefer nA
# //////////////////////////////////////////////////////////
# ...
# ----------------------------------------------------------
# energy requested_energy measurement_time xmu I0 It Ir
13273.7 13273.7 0.500000 -0.542007 60.9605 35.4534 28.5035
13293.8 13293.7 0.500000 -0.539207 60.5849 35.3338 28.4747
13313.8 13313.7 0.500000 -0.536067 60.3181 35.2888 28.5019
13333.8 13333.7 0.500000 -0.533142 60.0062 35.2091 28.5
13353.8 13353.7 0.500000 -0.530432 59.8137 35.1914 28.5461
13373.7 13373.7 0.500000 -0.527906 59.4879 35.0883 28.5172
13393.7 13393.7 0.500000 -0.526346 59.2244 34.9874 28.4888
13413.6 13413.7 0.500000 -0.525718 58.9824 34.8663 28.4276
13433.7 13433.7 0.500000 -0.528502 58.6926 34.5985 28.2192
13445.7 13445.7 0.500000 -0.535019 58.6703 34.3608 27.9899
13449.7 13449.7 0.500000 -0.539172 58.6029 34.179 27.8131
13453.7 13453.7 0.500000 -0.545100 58.5572 33.9505 27.5767
13457.7 13457.7 0.500000 -0.554189 58.4979 33.6093 27.2303
13461.7 13461.7 0.500000 -0.569068 58.4356 33.0776 26.6614
13464.1 13464.2 0.500000 -0.582986 58.3898 32.5949 26.1317
13465.1 13465.2 0.500000 -0.590968 58.3725 32.3262 25.84
13466.1 13466.2 0.500000 -0.600221 58.3587 32.0209 25.4936
13467.2 13467.2 0.500000 -0.611636 58.3374 31.6459 25.074
13468.2 13468.2 0.500000 -0.625215 58.3107 31.2047 24.5618
13469.2 13469.2 0.500000 -0.641291 58.2533 30.6769 23.9396
13470.1 13470.2 0.500000 -0.661497 58.2277 30.05 23.1754
13471.2 13471.2 0.500000 -0.687902 58.2528 29.2796 22.1721
13472.1 13472.2 0.500000 -0.722926 58.2594 28.275 20.7534
13473.2 13473.2 0.500000 -0.773193 58.245 26.8822 18.6092
13474.2 13474.2 0.500000 -0.843535 58.2311 25.0503 15.4509
13475.2 13475.2 0.500000 -0.947844 58.1966 22.5556 11.3189
13476.2 13476.2 0.500000 -1.110597 58.1557 19.1543 7.610332
13477.2 13477.2 0.500000 -1.369255 58.0784 14.7691 5.400940
13478.1 13478.2 0.500000 -1.806354 57.9597 9.520000 3.775402
13479.2 13479.2 0.500000 -2.570592 57.6901 4.412730 1.936817
13480.2 13480.2 0.500000 -3.777687 57.7629 1.321358 0.594075
13481.2 13481.2 0.500000 -5.180447 58.028 0.326436 0.135187
13482.2 13482.2 0.500000 -4.780583 58.1263 0.487744 0.174826
13483.2 13483.2 0.500000 -3.504793 58.0831 1.745570 0.627647
13484.2 13484.2 0.500000 -2.664580 58.0523 4.042098 1.452306
13485.2 13485.2 0.500000 -2.212348 58.0744 6.355854 2.331120
13486.2 13486.2 0.500000 -2.014936 58.0681 7.742151 2.897895
13487.2 13487.2 0.500000 -2.008794 58.0548 7.788069 2.996903
13488.2 13488.2 0.500000 -2.160691 58.0459 6.689528 2.640596
13489.2 13489.2 0.500000 -2.366674 58.0317 5.442914 2.193588
13490.2 13490.2 0.500000 -2.453123 58.012 4.990456 2.042257
13491.2 13491.2 0.500000 -2.389739 57.9512 5.311434 2.192986
13492.2 13492.2 0.500000 -2.331139 57.9098 5.627960 2.321288
13493.2 13493.2 0.500000 -2.374646 57.9375 5.390939 2.211055
13494.2 13494.2 0.500000 -2.516017 57.9524 4.681436 1.904047
13495.2 13495.2 0.500000 -2.689418 57.9409 3.935368 1.587867
13496.2 13496.2 0.500000 -2.813585 57.9192 3.474548 1.395969
13497.2 13497.2 0.500000 -2.817570 57.905 3.459880 1.388623
13498.2 13498.2 0.500000 -2.731875 57.8776 3.767665 1.512919
13499.7 13499.7 1.000000 -2.552840 115.654 9.004850 3.644784
13501.7 13501.7 1.000000 -2.331786 115.665 11.2336 4.619363
13503.8 13503.8 1.000000 -2.158705 115.589 13.3475 5.575826
13506 13506 1.000000 -2.073956 115.515 14.5188 6.121605
13508.3 13508.3 1.000000 -2.038670 115.441 15.0306 6.362461
13510.6 13510.6 1.000000 -2.064702 115.368 14.6351 6.178758
13513 13513 1.000000 -2.088126 115.29 14.2866 5.970461
13515.5 13515.5 1.000000 -2.072857 115.212 14.4966 5.963270
13518.1 13518 1.000000 -2.023656 115.127 15.2165 6.180952
13520.7 13520.7 1.000000 -2.005276 115.038 15.4867 6.258930
13523.4 13523.4 1.000000 -2.049458 114.954 14.8066 5.996639
13526.2 13526.2 1.000000 -2.105364 114.813 13.9844 5.695888
13529.1 13529 1.000000 -2.157022 114.742 13.2721 5.438526
13532 13532 1.000000 -2.186595 114.627 12.8725 5.304644
13535 13535 1.000000 -2.184374 114.321 12.8666 5.321856
13538.1 13538.1 1.000000 -2.196110 113.195 12.5912 5.224019
13541.3 13541.3 1.000000 -2.236614 113.936 12.1706 5.059399
13544.5 13544.5 1.000000 -2.272941 114.448 11.7891 4.907229
13547.9 13547.9 1.000000 -2.285173 114.328 11.6336 4.845663
13551.3 13551.2 1.000000 -2.286675 114.49 11.6326 4.853448
13554.7 13554.7 1.000000 -2.303604 114.251 11.4134 4.773908
13558.3 13558.3 1.000000 -2.329334 113.132 11.0146 4.623247
13561.9 13561.9 1.000000 -2.346134 114.201 10.9334 4.606951
13565.7 13565.6 1.000000 -2.352638 113.481 10.794 4.565438
13569.4 13569.4 1.000000 -2.345934 113.945 10.9111 4.627961
13573.3 13573.2 1.000000 -2.316881 112.698 11.1099 4.718021
13577.2 13577.2 1.000000 -2.276701 113.734 11.6717 4.960116
13581.2 13581.2 1.000000 -2.248570 113.625 11.9931 5.096309
13585.3 13585.3 1.000000 -2.226331 113.5 12.2493 5.205765
13589.5 13589.4 1.000000 -2.208811 113.161 12.4286 5.283613
13593.7 13593.7 1.000000 -2.197304 112.616 12.5119 5.325063
13598 13598 1.000000 -2.187211 113.195 12.7038 5.417014
13602.4 13602.4 1.000000 -2.173548 113.047 12.8618 5.493764
13606.9 13606.9 1.000000 -2.164958 112.935 12.9598 5.539230
13611.4 13611.4 1.000000 -2.158296 112.762 13.0265 5.562368
13616 13616 1.000000 -2.149911 112.675 13.126 5.595952
13620.7 13620.7 1.000000 -2.142657 112.475 13.1982 5.618634
13625.5 13625.5 1.000000 -2.145350 112.424 13.1567 5.600096
13630.4 13630.3 1.000000 -2.155072 112.205 13.0039 5.542348
13635.3 13635.2 1.000000 -2.167496 112.137 12.8356 5.486284
13640.3 13640.2 1.000000 -2.176470 111.984 12.7036 5.446374
[...]
13718.3 13718.2 1.000000 -2.150061 109.711 12.7788 5.597954
13724.4 13724.4 1.000000 -2.142264 109.534 12.8581 5.641664
13730.7 13730.6 1.000000 -2.135072 109.364 12.9308 5.686449
13736.9 13736.9 1.000000 -2.130451 109.196 12.9708 5.716429
13743.3 13743.3 1.000000 -2.125308 109.016 13.0161 5.747233
13749.8 13749.7 1.000000 -2.117810 108.819 13.0903 5.783851
13756.3 13756.2 1.000000 -2.112438 108.622 13.137 5.809959
13762.9 13762.9 1.000000 -2.110142 108.428 13.1438 5.819899
13769.6 13769.5 1.000000 -2.111277 108.236 13.1056 5.813888
13776.2 13776.3 1.000000 -2.113793 108.045 13.0495 5.801602
13783.1 13783.1 1.000000 -2.115711 108.191 13.0421 5.811196
13790 13790 1.000000 -2.115226 108.004 13.0259 5.814682
13797 13797 1.000000 -2.114077 107.797 13.0159 5.821803
13804.1 13804 1.000000 -2.112528 107.592 13.0113 5.832777
13811.2 13811.2 1.000000 -2.110885 107.377 13.0067 5.842401
13818.4 13818.4 1.000000 -2.108860 107.17 13.0078 5.856265
13825.7 13825.7 1.000000 -2.106495 106.916 13.0078 5.867532
13833.1 13833 1.000000 -2.103707 106.712 13.0192 5.882762
13840.5 13840.5 1.000000 -2.100047 106.523 13.0438 5.902361
13848 13848 1.000000 -2.095460 106.268 13.0725 5.924905
13855.6 13855.6 1.000000 -2.089723 105.951 13.1084 5.951386
13863.3 13863.2 1.000000 -2.083135 105.796 13.1758 5.991614
13871 13871 1.000000 -2.076165 105.49 13.2295 6.028370
13878.8 13878.8 1.000000 -2.069822 105.016 13.2539 6.049456
13886.7 13886.7 1.000000 -2.063581 104.486 13.2695 6.067401
13894.7 13894.7 1.000000 -2.057754 103.85 13.2658 6.079648
13902.8 13902.7 1.000000 -2.052884 103.759 13.3189 6.117683
13910.9 13910.9 1.000000 -2.048150 103.676 13.3714 6.156208
13919.1 13919 1.000000 -2.043290 103.371 13.3971 6.181518
13927.4 13927.3 1.000000 -2.038535 103.268 13.4474 6.217398
13935.7 13935.7 1.000000 -2.034352 103.17 13.4911 6.251794
13944.1 13944.1 1.000000 -2.030663 102.929 13.5093 6.272881
13952.6 13952.6 1.000000 -2.027724 102.684 13.5168 6.289341
13961.2 13961.2 1.000000 -2.025433 102.332 13.5014 6.296744
13969.9 13969.9 1.000000 -2.020882 95.1059 12.6052 5.889639
13978.7 13978.6 1.000000 -2.019789 102.401 13.587 6.361301
13987.4 13987.4 1.000000 -2.016757 102.118 13.5905 6.377407
13996.3 13996.3 1.000000 -2.013294 101.877 13.6055 6.398403
14005.3 14005.2 1.000000 -2.009707 101.65 13.6239 6.423031
14014.3 14014.3 1.000000 -2.005525 101.41 13.6487 6.447399
14023.4 14023.4 1.000000 -2.001344 101.155 13.6714 6.472283
14032.6 14032.6 1.000000 -1.996480 100.923 13.7067 6.500797
14041.9 14041.9 1.000000 -1.991650 100.696 13.7419 6.530156
14051.2 14051.2 1.000000 -1.986724 100.462 13.7778 6.563522
14060.6 14060.6 1.000000 -1.981459 100.173 13.8106 6.594435
14070.1 14070.1 1.000000 -1.975671 99.7017 13.8255 6.615319
14079.7 14079.7 1.000000 -1.970152 99.6618 13.8964 6.664578
14089.4 14089.3 1.000000 -1.964482 99.5378 13.958 6.710468
14099.1 14099.1 1.000000 -1.959118 99.1857 13.9835 6.736263
14108.9 14108.9 1.000000 -1.954043 98.5712 13.9675 6.744314
14118.8 14118.7 1.000000 -1.944931 93.0344 13.3036 6.435786
14128.7 14128.7 1.000000 -1.944018 98.4179 14.0863 6.833679
14139.1 14138.7 1.000000 -1.939647 98.4624 14.1544 6.882014
14148.8 14148.8 1.000000 -1.935468 98.199 14.1757 6.909250
14159 14159 1.000000 -1.931511 97.5626 14.1397 6.906677
14169.3 14169.3 1.000000 -1.927384 97.6089 14.2049 6.955867
14179.6 14179.6 1.000000 -1.923265 97.3701 14.2286 6.982095
14190 14190 1.000000 -1.919326 97.0962 14.2446 7.006591
14200.5 14200.5 1.000000 -1.915485 96.8227 14.2591 7.030176
14211.1 14211 1.000000 -1.911249 96.514 14.274 7.052151
14216.4 14216.4 1.000000 -1.909189 96.3635 14.2811 7.064562