Folder: bmm-standards/Data/Br

File: Br-K-CaBr2.xdi
# XDI/1.0 BlueSky/1.13.0a3 BMM/2024-2.0-py310-tiled
# Beamline.name: BMM (06BM) -- Beamline for Materials Measurement (NIST)
# Beamline.collimation: paraboloid mirror, 5 nm Rh on 30 nm Pt
# Beamline.xray_source: NSLS-II three-pole wiggler
# Beamline.focusing: not in use
# Beamline.harmonic_rejection: flat mirror, Pt stripe, pitch = 7.0 mrad relative to beam
# Beamline.software: Bluesky 1.13.0a4, Ophyd 1.9.0, DataBroker 2.0.0b45, Python 3.11.6, 2024-2.3-py311-tiled
# Detector.I0: 25 cm N2, NSLS2 IC
# Detector.It: 25 cm N2, NSLS2 IC
# Detector.Ir: 25 cm N2, NSLS2 IC
# Element.edge: K
# Element.symbol: Br
# Element.reference: Br
# Element.reference_material: bromophenol blue
# Facility.name: NSLS-II
# Facility.energy: 3.0
# Facility.GUP: 318519
# Facility.SAF: 316542
# Facility.cycle: 2025-2
# Facility.current: 400.1
# Facility.mode: top-off
# Mono.name: Si(111)
# Mono.d_spacing: 3.13553
# Mono.encoder_resolution: 5e-06
# Mono.angle_offset: 16.0812
# Mono.direction: forward
# Mono.scan_type: step
# Mono.scan_mode: pseudo channel cut
# Sample.name: ...
# Sample.prep: 2 abs. lengths in PEG pellet. Double kapton containment.
# Sample.SDD_position: 205.0
# Sample.x: 66.174
# Sample.y: 176.101
# Sample.wheel_slot: 19
# Sample.wheel_ring: outer
# Scan.edge_energy: 13473.7
# Scan.experimenters: Malin Dixon Wilkins, John Bussey, John Mccloy, Gavin Mccloy, Seonjin Kim, Maxwell Mccloy, John McCloy
# Scan.start_time: 2025-07-09T21:52:45
# Scan.end_time: 2025-07-09T22:00:28
# Scan.uid: d91ab3cc-bfa5-4534-b5ea-ddf6ee773bf5
# Scan.transient_id: 32782
# Scan.plot_hint: ln(I0/It)  --  ln($5/$6)
# Column.1: energy eV
# Column.2: requested_energy eV
# Column.3: measurement_time seconds
# Column.4: xmu
# Column.5: I0 nA
# Column.6: Itrans nA
# Column.7: Irefer nA
# //////////////////////////////////////////////////////////
# ...
# ----------------------------------------------------------
# energy requested_energy measurement_time xmu I0 It Ir
13273.7 13273.7 0.500000 -0.524201 61.0828 36.1627 29.0862
13293.8 13293.7 0.500000 -0.521369 60.7024 36.0395 29.0531
13313.8 13313.7 0.500000 -0.518186 60.4343 35.9947 29.0846
13333.8 13333.7 0.500000 -0.515286 60.1043 35.9021 29.0722
13353.7 13353.7 0.500000 -0.512635 59.9069 35.8792 29.1193
13373.7 13373.7 0.500000 -0.509970 59.5713 35.7734 29.0916
13393.7 13393.7 0.500000 -0.507905 59.3063 35.6878 29.0753
13413.7 13413.7 0.500000 -0.506583 59.0588 35.5859 29.0336
13433.7 13433.7 0.500000 -0.507383 58.7522 35.3728 28.8725
13445.7 13445.7 0.500000 -0.510660 58.5697 35.1477 28.6475
13449.6 13449.7 0.500000 -0.512766 58.494 35.0284 28.5182
13453.7 13453.7 0.500000 -0.516151 58.4453 34.8809 28.3486
13457.7 13457.7 0.500000 -0.521760 58.3898 34.6529 28.0863
13461.6 13461.7 0.500000 -0.530544 58.3254 34.312 27.6715
13464.1 13464.2 0.500000 -0.539409 58.2797 33.9825 27.2587
13465.1 13465.2 0.500000 -0.544430 58.262 33.802 27.0328
13466.2 13466.2 0.500000 -0.550495 58.24 33.5849 26.7517
13467.1 13467.2 0.500000 -0.557912 58.2185 33.3245 26.4148
13468.1 13468.2 0.500000 -0.566967 58.1972 33.012 26.0007
13469.1 13469.2 0.500000 -0.578974 58.1429 32.5875 25.4439
13470.2 13470.2 0.500000 -0.594678 58.1142 32.0639 24.7229
13471.2 13471.2 0.500000 -0.616551 58.1332 31.3804 23.7467
13472.2 13472.2 0.500000 -0.649144 58.1483 30.382 22.2571
13473.2 13473.2 0.500000 -0.699610 58.1313 28.8784 19.9496
13474.1 13474.2 0.500000 -0.787107 58.1175 26.4527 16.3113
13475.2 13475.2 0.500000 -0.953771 58.0896 22.3811 11.3037
13476.2 13476.2 0.500000 -1.262541 58.0427 16.4223 6.591785
13477.2 13477.2 0.500000 -1.701636 57.9665 10.5722 3.876076
13478.2 13478.2 0.500000 -2.142235 57.838 6.789737 2.779706
13479.2 13479.2 0.500000 -2.361540 57.5757 5.427943 2.444165
13480.2 13480.2 0.500000 -2.384673 57.6527 5.310910 2.318408
13481.2 13481.2 0.500000 -2.331120 57.919 5.628967 2.249192
13482.2 13482.2 0.500000 -2.228161 58.1494 6.264230 2.327976
13483.2 13483.2 0.500000 -2.082494 58.1069 7.241221 2.599667
13484.2 13484.2 0.500000 -1.938445 58.0748 8.358560 3.006364
13485.2 13485.2 0.500000 -1.819184 58.0935 9.420326 3.444603
13486.2 13486.2 0.500000 -1.735057 58.1017 10.2486 3.852024
13487.2 13487.2 0.500000 -1.689610 58.0811 10.7213 4.154235
13488.2 13488.2 0.500000 -1.681031 58.06 10.8097 4.300698
13489.2 13489.2 0.500000 -1.710132 58.0434 10.4967 4.253394
13490.2 13490.2 0.500000 -1.767683 58.0297 9.907298 4.067074
13491.2 13491.2 0.500000 -1.835005 57.9684 9.252504 3.822090
13492.2 13492.2 0.500000 -1.894307 57.9263 8.713427 3.598046
13493.2 13493.2 0.500000 -1.948027 57.9394 8.259555 3.394487
13494.2 13494.2 0.500000 -1.984838 57.9532 7.962931 3.249717
13495.2 13495.2 0.500000 -2.002524 57.9416 7.821777 3.170135
13496.2 13496.2 0.500000 -2.002851 57.9255 7.817040 3.153508
13497.2 13497.2 0.500000 -1.996019 57.9058 7.867962 3.166696
13498.2 13498.2 0.500000 -1.991321 57.885 7.902168 3.180992
13499.7 13499.7 1.000000 -1.996355 115.656 15.7094 6.368235
13501.7 13501.7 1.000000 -2.009147 115.656 15.5098 6.391764
13503.8 13503.8 1.000000 -2.005085 115.602 15.5657 6.515770
13506 13506 1.000000 -1.981134 115.519 15.9315 6.729656
13508.3 13508.3 1.000000 -1.946479 115.454 16.484 6.990466
13510.6 13510.6 1.000000 -1.911961 115.366 17.05 7.213877
13513 13513 1.000000 -1.887375 115.276 17.4607 7.307166
13515.5 13515.5 1.000000 -1.874665 115.194 17.6715 7.283409
13518.1 13518 1.000000 -1.869528 115.109 17.7495 7.224966
13520.7 13520.7 1.000000 -1.869851 115.011 17.7286 7.177714
13523.4 13523.4 1.000000 -1.874594 114.926 17.6316 7.156660
13526.2 13526.2 1.000000 -1.881627 114.798 17.4885 7.138742
13529.1 13529 1.000000 -1.890284 114.719 17.3259 7.117870
13532 13532 1.000000 -1.898265 114.599 17.1702 7.090864
13535 13535 1.000000 -1.901190 114.281 17.0725 7.078159
13538.2 13538.1 1.000000 -1.897969 113.227 16.9696 7.057771
13541.3 13541.3 1.000000 -1.887206 113.913 17.2572 7.190703
13544.6 13544.5 1.000000 -1.871701 114.412 17.6037 7.344456
13547.8 13547.9 1.000000 -1.856606 114.285 17.8516 7.454662
13551.3 13551.2 1.000000 -1.845744 114.149 18.0251 7.540346
13554.8 13554.7 1.000000 -1.839529 113.918 18.1006 7.589906
13558.3 13558.3 1.000000 -1.838094 112.792 17.9476 7.551542
13562 13561.9 1.000000 -1.839581 113.834 18.0865 7.640371
13565.6 13565.6 1.000000 -1.843168 113.122 17.9089 7.596117
13569.4 13569.4 1.000000 -1.847780 113.598 17.9015 7.611946
13573.3 13573.2 1.000000 -1.850756 112.361 17.6539 7.516683
13577.2 13577.2 1.000000 -1.850380 113.352 17.8164 7.589761
13581.2 13581.2 1.000000 -1.848314 113.27 17.8403 7.599489
13585.3 13585.3 1.000000 -1.844422 113.126 17.8871 7.617162
13589.4 13589.4 1.000000 -1.839890 112.775 17.9126 7.630962
13593.7 13593.7 1.000000 -1.835178 112.192 17.9042 7.637040
13598 13598 1.000000 -1.832860 112.821 18.0463 7.712833
13602.4 13602.4 1.000000 -1.831093 112.656 18.0519 7.726254
13606.9 13606.9 1.000000 -1.830258 112.546 18.0492 7.731208
13611.4 13611.4 1.000000 -1.829430 112.372 18.0363 7.716137
13616 13616 1.000000 -1.829080 112.577 18.0754 7.720672
13620.7 13620.7 1.000000 -1.828460 112.363 18.0524 7.700718
13625.5 13625.5 1.000000 -1.826802 112.301 18.0722 7.708111
13630.4 13630.3 1.000000 -1.823982 112.076 18.087 7.723770
13635.3 13635.2 1.000000 -1.820432 112.007 18.1402 7.770678
13640.3 13640.2 1.000000 -1.816427 111.858 18.1887 7.815700
[...]
13718.3 13718.2 1.000000 -1.780490 109.581 18.4705 8.110516
13724.4 13724.4 1.000000 -1.777804 109.41 18.4913 8.132177
13730.7 13730.6 1.000000 -1.775149 109.227 18.5094 8.158350
13736.9 13736.9 1.000000 -1.772739 109.056 18.5251 8.183428
13743.3 13743.3 1.000000 -1.770196 108.872 18.5409 8.205219
13749.8 13749.7 1.000000 -1.767580 108.686 18.5577 8.219404
13756.3 13756.2 1.000000 -1.764703 108.484 18.5766 8.233559
13762.9 13762.9 1.000000 -1.761621 108.297 18.6017 8.254587
13769.5 13769.5 1.000000 -1.758544 108.09 18.6234 8.279522
13776.3 13776.3 1.000000 -1.755511 107.899 18.6469 8.309884
13783.1 13783.1 1.000000 -1.752381 107.693 18.6698 8.336258
13790 13790 1.000000 -1.749499 107.498 18.6897 8.363903
13797 13797 1.000000 -1.746519 107.296 18.7102 8.389131
13804.1 13804 1.000000 -1.743299 107.092 18.735 8.415287
13811.2 13811.2 1.000000 -1.740099 106.892 18.7599 8.446170
13818.4 13818.4 1.000000 -1.736934 106.673 18.7807 8.475070
13825.7 13825.7 1.000000 -1.733777 106.425 18.7964 8.501151
13833.1 13833 1.000000 -1.730374 106.219 18.824 8.523996
13840.5 13840.5 1.000000 -1.727113 106.015 18.8492 8.549725
13848 13848 1.000000 -1.723655 105.75 18.8671 8.571476
13855.6 13855.6 1.000000 -1.720190 105.442 18.8775 8.590888
13863.3 13863.2 1.000000 -1.716650 105.268 18.9132 8.621282
13871 13871 1.000000 -1.713186 104.954 18.9221 8.640277
13878.8 13878.8 1.000000 -1.709632 104.471 18.9021 8.645659
13886.7 13886.7 1.000000 -1.706056 104.018 18.8876 8.654730
13894.7 13894.7 1.000000 -1.702602 103.599 18.8767 8.670234
13902.8 13902.7 1.000000 -1.699079 103.464 18.9185 8.711065
13910.9 13910.9 1.000000 -1.695642 103.388 18.9698 8.754517
13919.1 13919 1.000000 -1.691923 103.058 18.9796 8.777953
13927.4 13927.3 1.000000 -1.688144 102.925 19.027 8.818079
13935.7 13935.7 1.000000 -1.684432 102.778 19.0704 8.855998
13944.1 13944.1 1.000000 -1.680757 102.501 19.089 8.885957
13952.7 13952.6 1.000000 -1.677130 102.255 19.1125 8.916087
13961.2 13961.2 1.000000 -1.673173 101.85 19.1123 8.935551
13969.9 13969.9 1.000000 -1.668579 94.6584 17.8445 8.357171
13978.6 13978.6 1.000000 -1.665698 101.903 19.2657 9.041415
13987.4 13987.4 1.000000 -1.661916 101.587 19.2787 9.067610
13996.3 13996.3 1.000000 -1.658139 101.297 19.2965 9.097153
14005.3 14005.2 1.000000 -1.654204 101.048 19.3249 9.132634
14014.3 14014.3 1.000000 -1.650491 100.781 19.3455 9.162426
14023.4 14023.4 1.000000 -1.646512 100.515 19.3714 9.191604
14032.6 14032.6 1.000000 -1.642671 100.235 19.3918 9.220922
14041.9 14041.9 1.000000 -1.638887 99.9762 19.415 9.251219
14051.2 14051.2 1.000000 -1.634973 99.7416 19.4454 9.286744
14060.6 14060.6 1.000000 -1.631068 99.4441 19.4632 9.316227
14070.2 14070.1 1.000000 -1.627123 98.9648 19.446 9.327868
14079.8 14079.7 1.000000 -1.623050 98.8393 19.5006 9.374855
14089.9 14089.3 1.000000 -1.619074 98.6946 19.5496 9.419059
14099.1 14099.1 1.000000 -1.615254 98.3705 19.56 9.446385
14108.9 14108.9 1.000000 -1.611311 97.7331 19.51 9.443782
14118.8 14118.7 1.000000 -1.605115 92.6794 18.6162 9.029138
14128.8 14128.7 1.000000 -1.603283 97.7559 19.6719 9.566352
14138.8 14138.7 1.000000 -1.599330 97.4506 19.6881 9.596326
14148.9 14148.8 1.000000 -1.595315 97.1644 19.7093 9.630966
14159 14159 1.000000 -1.591388 96.5686 19.6655 9.631223
14169.3 14169.3 1.000000 -1.587279 96.5733 19.7474 9.690917
14179.6 14179.6 1.000000 -1.583265 96.3291 19.7767 9.730197
14190 14190 1.000000 -1.579340 96.097 19.8067 9.765479
14200.5 14200.5 1.000000 -1.575192 95.8077 19.8291 9.797359
14211.1 14211 1.000000 -1.571059 95.5168 19.8508 9.829509
14216.4 14216.4 1.000000 -1.568979 95.3725 19.8621 9.846906

File: Br-K-KBr.xdi
# XDI/1.0 BlueSky/1.13.0a3 BMM/2024-2.0-py310-tiled
# Beamline.name: BMM (06BM) -- Beamline for Materials Measurement (NIST)
# Beamline.collimation: paraboloid mirror, 5 nm Rh on 30 nm Pt
# Beamline.xray_source: NSLS-II three-pole wiggler
# Beamline.focusing: not in use
# Beamline.harmonic_rejection: flat mirror, Pt stripe, pitch = 7.0 mrad relative to beam
# Beamline.software: Bluesky 1.13.0a4, Ophyd 1.9.0, DataBroker 2.0.0b45, Python 3.11.6, 2024-2.3-py311-tiled
# Detector.I0: 25 cm N2, NSLS2 IC
# Detector.It: 25 cm N2, NSLS2 IC
# Detector.Ir: 25 cm N2, NSLS2 IC
# Element.edge: K
# Element.symbol: Br
# Element.reference: Br
# Element.reference_material: bromophenol blue
# Facility.name: NSLS-II
# Facility.energy: 3.0
# Facility.GUP: 318519
# Facility.SAF: 316542
# Facility.cycle: 2025-2
# Facility.current: 400.5
# Facility.mode: top-off
# Mono.name: Si(111)
# Mono.d_spacing: 3.13553
# Mono.encoder_resolution: 5e-06
# Mono.angle_offset: 16.0812
# Mono.direction: forward
# Mono.scan_type: step
# Mono.scan_mode: pseudo channel cut
# Sample.name: ...
# Sample.prep: 2 abs. lengths in PEG pellet. Double kapton containment.
# Sample.SDD_position: 205.0
# Sample.x: 66.174
# Sample.y: 176.101
# Sample.wheel_slot: 20
# Sample.wheel_ring: outer
# Scan.edge_energy: 13473.7
# Scan.experimenters: Malin Dixon Wilkins, John Bussey, John Mccloy, Gavin Mccloy, Seonjin Kim, Maxwell Mccloy, John McCloy
# Scan.start_time: 2025-07-09T22:01:00
# Scan.end_time: 2025-07-09T22:08:46
# Scan.uid: 29d5cdc5-f55e-423d-bff1-1223d2e4601d
# Scan.transient_id: 32786
# Scan.plot_hint: ln(I0/It)  --  ln($5/$6)
# Column.1: energy eV
# Column.2: requested_energy eV
# Column.3: measurement_time seconds
# Column.4: xmu
# Column.5: I0 nA
# Column.6: Itrans nA
# Column.7: Irefer nA
# //////////////////////////////////////////////////////////
# ...
# ----------------------------------------------------------
# energy requested_energy measurement_time xmu I0 It Ir
13273.7 13273.7 0.500000 -0.702461 61.0754 30.2546 24.3181
13293.8 13293.7 0.500000 -0.699248 60.6989 30.1648 24.3004
13313.8 13313.7 0.500000 -0.695375 60.4291 30.1473 24.3442
13333.8 13333.7 0.500000 -0.691949 60.1047 30.0884 24.3518
13353.8 13353.7 0.500000 -0.688716 59.9151 30.0906 24.3993
13373.7 13373.7 0.500000 -0.685300 59.5834 30.0264 24.4
13393.6 13393.7 0.500000 -0.682788 59.3176 29.9676 24.395
13413.7 13413.7 0.500000 -0.681321 59.0758 29.8893 24.3688
13433.7 13433.7 0.500000 -0.681936 58.7605 29.7115 24.2294
13445.7 13445.7 0.500000 -0.686014 58.5794 29.4994 24.023
13449.7 13449.7 0.500000 -0.689135 58.5139 29.3746 23.894
13453.7 13453.7 0.500000 -0.693257 58.4616 29.2276 23.7362
13457.7 13457.7 0.500000 -0.699378 58.403 29.0201 23.4993
13461.7 13461.7 0.500000 -0.710175 58.3364 28.6757 23.1028
13464.1 13464.2 0.500000 -0.720401 58.2927 28.3627 22.7315
13465.1 13465.2 0.500000 -0.726001 58.2753 28.1959 22.5267
13466.1 13466.2 0.500000 -0.733129 58.2654 27.9909 22.2758
13467.2 13467.2 0.500000 -0.741913 58.2468 27.7373 21.9612
13468.1 13468.2 0.500000 -0.752340 58.2245 27.439 21.5844
13469.2 13469.2 0.500000 -0.765361 58.1587 27.0535 21.0913
13470.2 13470.2 0.500000 -0.782201 58.1345 26.5906 20.4779
13471.2 13471.2 0.500000 -0.805607 58.1619 25.9877 19.6445
13472.2 13472.2 0.500000 -0.838926 58.1646 25.1372 18.4017
13473.2 13473.2 0.500000 -0.889687 58.1528 23.8883 16.4794
13474.2 13474.2 0.500000 -0.973720 58.1374 21.9571 13.4918
13475.2 13475.2 0.500000 -1.120557 58.1177 18.9521 9.538406
13476.2 13476.2 0.500000 -1.381191 58.0714 14.5921 5.856985
13477.2 13477.2 0.500000 -1.811385 57.9913 9.477374 3.436992
13478.2 13478.2 0.500000 -2.351312 57.8587 5.510702 2.190332
13479.2 13479.2 0.500000 -2.700644 57.5868 3.867656 1.709896
13480.2 13480.2 0.500000 -2.699896 57.672 3.876280 1.681148
13481.2 13481.2 0.500000 -2.617679 57.9429 4.228211 1.693896
13482.2 13482.2 0.500000 -2.597643 58.0403 4.321032 1.604185
13483.2 13483.2 0.500000 -2.571229 57.9891 4.432781 1.585291
13484.2 13484.2 0.500000 -2.440468 57.957 5.049220 1.808507
13485.2 13485.2 0.500000 -2.204601 57.9806 6.394943 2.332699
13486.2 13486.2 0.500000 -2.021328 57.9813 7.681321 2.871420
13487.2 13487.2 0.500000 -1.995162 57.9657 7.882845 3.030341
13488.2 13488.2 0.500000 -2.089165 57.954 7.174148 2.829249
13489.2 13489.2 0.500000 -2.196254 57.929 6.442813 2.591379
13490.2 13490.2 0.500000 -2.270879 57.9123 5.977789 2.435438
13491.2 13491.2 0.500000 -2.316933 57.8547 5.703054 2.340231
13492.2 13492.2 0.500000 -2.331870 57.8191 5.615042 2.306083
13493.2 13493.2 0.500000 -2.328377 57.8411 5.636836 2.302664
13494.2 13494.2 0.500000 -2.331978 57.8508 5.617517 2.278382
13495.2 13495.2 0.500000 -2.353458 57.8333 5.496475 2.213618
13496.2 13496.2 0.500000 -2.379046 57.8236 5.356718 2.147389
13497.2 13497.2 0.500000 -2.377289 57.8045 5.364364 2.146349
13498.2 13498.2 0.500000 -2.336929 57.7737 5.582322 2.234272
13499.7 13499.7 1.000000 -2.253344 115.443 12.127 4.886063
13501.8 13501.7 1.000000 -2.210174 115.439 12.6615 5.186343
13503.8 13503.8 1.000000 -2.233725 115.375 12.3599 5.141483
13506 13506 1.000000 -2.258603 115.297 12.0481 5.058376
13508.3 13508.3 1.000000 -2.275145 115.224 11.843 4.991037
13510.6 13510.6 1.000000 -2.277066 115.487 11.8472 4.981341
13513 13513 1.000000 -2.273421 115.396 11.8811 4.944008
13515.5 13515.5 1.000000 -2.275219 115.309 11.8508 4.855974
13518 13518 1.000000 -2.285608 115.216 11.7189 4.741239
13520.7 13520.7 1.000000 -2.279107 115.124 11.7858 4.743271
13523.4 13523.4 1.000000 -2.258045 115.029 12.0268 4.851734
13526.2 13526.2 1.000000 -2.247981 114.887 12.1335 4.922791
13529.1 13529 1.000000 -2.231303 114.803 12.3285 5.034913
13532 13532 1.000000 -2.195914 114.667 12.7575 5.238348
13535 13535 1.000000 -2.176713 114.337 12.9673 5.344611
13538.1 13538.1 1.000000 -2.180616 113.289 12.7985 5.292543
13541.3 13541.3 1.000000 -2.191708 113.991 12.7357 5.276852
13544.6 13544.5 1.000000 -2.212618 114.463 12.5238 5.194515
13547.9 13547.9 1.000000 -2.229275 114.344 12.3042 5.107971
13551.3 13551.2 1.000000 -2.235515 114.214 12.2137 5.079716
13554.7 13554.7 1.000000 -2.222422 113.958 12.3469 5.146905
13558.3 13558.3 1.000000 -2.208455 112.88 12.4021 5.188388
13561.9 13561.9 1.000000 -2.196287 113.893 12.6667 5.319818
13565.6 13565.6 1.000000 -2.187459 113.177 12.6986 5.354502
13569.4 13569.4 1.000000 -2.179055 113.643 12.8586 5.437319
13573.3 13573.2 1.000000 -2.171491 112.389 12.8132 5.424583
13577.2 13577.2 1.000000 -2.167127 113.424 12.9877 5.501679
13581.2 13581.2 1.000000 -2.170490 113.313 12.9315 5.476248
13585.3 13585.3 1.000000 -2.182035 113.164 12.7662 5.406284
13589.4 13589.4 1.000000 -2.188997 112.802 12.6371 5.354277
13593.7 13593.7 1.000000 -2.189700 112.227 12.5639 5.327565
13598 13598 1.000000 -2.192636 112.854 12.597 5.352229
13602.4 13602.4 1.000000 -2.191247 112.694 12.5966 5.360963
13606.8 13606.9 1.000000 -2.183293 112.577 12.684 5.401000
13611.4 13611.4 1.000000 -2.174025 112.414 12.7836 5.439696
13616 13616 1.000000 -2.166486 112.3 12.8673 5.465287
13620.7 13620.7 1.000000 -2.160911 112.092 12.9153 5.478611
13625.5 13625.5 1.000000 -2.159356 112.019 12.9269 5.483741
13630.4 13630.3 1.000000 -2.158730 111.792 12.9088 5.481274
13635.3 13635.2 1.000000 -2.158675 111.714 12.9005 5.494654
13640.3 13640.2 1.000000 -2.158589 111.563 12.8842 5.505174
[...]
13718.3 13718.2 1.000000 -2.123238 109.646 13.1184 5.728189
13724.4 13724.4 1.000000 -2.120058 109.471 13.1392 5.747203
13730.6 13730.6 1.000000 -2.116782 109.297 13.1614 5.770155
13736.9 13736.9 1.000000 -2.112934 109.119 13.1906 5.793231
13743.3 13743.3 1.000000 -2.109677 108.949 13.213 5.814653
13749.7 13749.7 1.000000 -2.106275 108.755 13.2345 5.830394
13756.3 13756.2 1.000000 -2.102978 108.559 13.2542 5.843527
13762.9 13762.9 1.000000 -2.100287 108.375 13.2675 5.856501
13769.6 13769.5 1.000000 -2.097786 108.189 13.2778 5.871373
13776.3 13776.3 1.000000 -2.094850 107.992 13.2926 5.891312
13783.1 13783.1 1.000000 -2.092187 107.787 13.3028 5.909004
13790 13790 1.000000 -2.088884 107.591 13.3224 5.927359
13797 13797 1.000000 -2.085837 107.374 13.3362 5.945698
13804.1 13804 1.000000 -2.082382 107.175 13.3575 5.967133
13811.2 13811.2 1.000000 -2.078825 106.98 13.3807 5.992267
13818.4 13818.4 1.000000 -2.075234 106.779 13.4036 6.015913
13825.7 13825.7 1.000000 -2.071475 106.537 13.4236 6.036894
13833.1 13833 1.000000 -2.067649 106.345 13.4509 6.058810
13840.5 13840.5 1.000000 -2.064100 106.139 13.4725 6.076608
13848 13848 1.000000 -2.060780 105.887 13.4852 6.092209
13855.6 13855.6 1.000000 -2.057495 105.549 13.4864 6.103580
13863.3 13863.2 1.000000 -2.053813 105.398 13.5168 6.128491
13871 13871 1.000000 -2.050035 105.085 13.5276 6.142804
13878.8 13878.8 1.000000 -2.046464 104.594 13.5126 6.146770
13886.8 13886.7 1.000000 -2.042673 104.096 13.4994 6.152640
13894.7 13894.7 1.000000 -2.038737 103.427 13.4655 6.150260
13902.8 13902.7 1.000000 -2.035014 103.304 13.4996 6.180682
13910.9 13910.9 1.000000 -2.031085 103.241 13.5445 6.216414
13919.1 13919 1.000000 -2.026995 102.908 13.5562 6.233972
13927.4 13927.3 1.000000 -2.023157 102.781 13.5914 6.264308
13935.7 13935.7 1.000000 -2.019022 102.639 13.629 6.294487
13944.2 13944.1 1.000000 -2.015053 102.379 13.6484 6.317981
13952.6 13952.6 1.000000 -2.011140 102.138 13.6697 6.341593
13961.2 13961.2 1.000000 -2.007578 101.743 13.6654 6.352319
13969.9 13969.9 1.000000 -2.000915 94.5081 12.7786 5.950048
13978.6 13978.6 1.000000 -1.999460 101.811 13.786 6.435925
13987.4 13987.4 1.000000 -1.995090 101.484 13.8019 6.454850
13996.3 13996.3 1.000000 -1.991225 101.207 13.8175 6.477618
14005.3 14005.2 1.000000 -1.986993 100.959 13.8422 6.504283
14014.3 14014.3 1.000000 -1.983123 100.718 13.8628 6.528608
14023.5 14023.4 1.000000 -1.978673 100.67 13.9179 6.566760
14032.6 14032.6 1.000000 -1.974838 100.431 13.9382 6.591349
14041.9 14041.9 1.000000 -1.970590 100.196 13.9648 6.616023
14051.3 14051.2 1.000000 -1.966276 99.9529 13.9911 6.643795
14060.8 14060.6 1.000000 -1.962094 99.6584 14.0084 6.667437
14070.1 14070.1 1.000000 -1.957902 99.2149 14.0046 6.680304
14079.7 14079.7 1.000000 -1.953988 99.1125 14.045 6.716026
14089.3 14089.3 1.000000 -1.949377 99.0018 14.0942 6.752796
14099.1 14099.1 1.000000 -1.945220 98.655 14.1033 6.773386
14108.9 14108.9 1.000000 -1.940934 98.0378 14.0753 6.776073
14118.8 14118.7 1.000000 -1.932072 92.809 13.4432 6.481494
14128.7 14128.7 1.000000 -1.932067 98.0283 14.1993 6.868029
14138.8 14138.7 1.000000 -1.928047 97.7522 14.2163 6.891396
14148.9 14148.8 1.000000 -1.923546 97.4719 14.2395 6.918584
14159 14159 1.000000 -1.919554 96.8625 14.207 6.918178
14169.3 14169.3 1.000000 -1.915023 96.8919 14.2759 6.967559
14179.6 14179.6 1.000000 -1.910595 96.67 14.3064 6.996992
14190 14190 1.000000 -1.906369 96.4092 14.3282 7.023502
14200.5 14200.5 1.000000 -1.901936 96.1386 14.3515 7.051596
14211.1 14211 1.000000 -1.897704 95.8633 14.3711 7.075860
14216.4 14216.4 1.000000 -1.895470 95.7247 14.3824 7.090866