Folder: bmm-standards/Data/Mo

File: Mo-K-Na2MoO4.xdi
# XDI/1.0 BlueSky/1.13.0a3 BMM/2024-2.0-py310-tiled
# Beamline.name: BMM (06BM) -- Beamline for Materials Measurement (NIST)
# Beamline.collimation: paraboloid mirror, 5 nm Rh on 30 nm Pt
# Beamline.xray_source: NSLS-II three-pole wiggler
# Beamline.focusing: not in use
# Beamline.harmonic_rejection: flat mirror, Pt stripe, pitch = 7.0 mrad relative to beam
# Beamline.software: Bluesky 1.13.0a4, Ophyd 1.9.0, DataBroker 2.0.0b45, Python 3.11.6, 2024-2.3-py311-tiled
# Detector.I0: 25 cm N2, NSLS2 IC
# Detector.It: 25 cm N2, NSLS2 IC
# Detector.Ir: 25 cm N2, NSLS2 IC
# Detector.fluorescence: Hitachi Vortex ME7 (7-element silicon drift)
# Detector.deadtime_correction: Xspress3
# Element.edge: K
# Element.symbol: Mo
# Element.reference: Mo
# Element.reference_material: Mo foil
# Facility.name: NSLS-II
# Facility.energy: 3.0
# Facility.GUP: 318519
# Facility.SAF: 316542
# Facility.cycle: 2025-2
# Facility.current: 400.1
# Facility.mode: top-off
# Mono.name: Si(111)
# Mono.d_spacing: 3.13553
# Mono.encoder_resolution: 5e-06
# Mono.angle_offset: 16.0812
# Mono.direction: forward
# Mono.scan_type: step
# Mono.scan_mode: pseudo channel cut
# Sample.name: ...
# Sample.prep: 2 abs. lengths in PEG pellet. Double kapton containment.
# Sample.SDD_position: 205.0
# Sample.x: 66.174
# Sample.y: 176.101
# Sample.wheel_slot: 1
# Sample.wheel_ring: outer
# Scan.edge_energy: 19999.5
# Scan.experimenters: Malin Dixon Wilkins, John Bussey, John Mccloy, Gavin Mccloy, Seonjin Kim, Maxwell Mccloy, John McCloy
# Scan.start_time: 2025-07-09T19:07:46
# Scan.end_time: 2025-07-09T19:16:04
# Scan.uid: d5c9c534-2849-4908-961a-0a1cc8c89d07
# Scan.transient_id: 32693
# Scan.xspress3_hdf5_file: assets/xspress3-1/2025/07/09/d8a6be9f-0853-4fba-8a75_000000.h5
# Scan.plot_hint: (Mo1+Mo2+Mo3+Mo4+Mo5+Mo6+Mo7)/I0  --  ($8+$9+$10+$11+$12+$13+$14)/$5
# Column.1: energy eV
# Column.2: requested_energy eV
# Column.3: measurement_time seconds
# Column.4: xmu
# Column.5: I0 nA
# Column.6: Itrans nA
# Column.7: Irefer nA
# Column.8: Mo1
# Column.9: Mo2
# Column.10: Mo3
# Column.11: Mo4
# Column.12: Mo5
# Column.13: Mo6
# Column.14: Mo7
# //////////////////////////////////////////////////////////
# ...
# ----------------------------------------------------------
# energy requested_energy measurement_time xmu I0 It Ir Mo1 Mo2 Mo3 Mo4 Mo5 Mo6 Mo7
19799.5 19799.5 0.500000 474.859 9.586796 7.194422 7.555755 675.201 681.2 626.188 655.199 640.188 667.214 607.183
19839.7 19839.5 0.500000 744.715 9.413161 7.083459 7.445313 994.296 1029.3 1007.31 1025.31 962.285 988.322 1003.3
19879.7 19879.5 0.500000 1165.33 9.251148 6.970902 7.330747 1566.52 1519.5 1596.54 1584.53 1496.49 1556.56 1460.49
19919.6 19919.5 0.500000 1980.44 9.093002 6.847098 7.194713 2595.02 2552.99 2641.05 2668.07 2554.99 2550.09 2445.98
19959.6 19959.5 0.500000 4084.96 8.930239 6.669650 6.972515 5165.03 5227.01 5376.2 5265.12 5186 5078.23 5182.1
19975.6 19975.5 0.500000 6255.38 8.867621 6.548811 6.795757 7906.22 7963.2 8158.51 8062.45 7734.99 7805.66 7839.27
19983.5 19983.5 0.500000 8408.62 8.830259 6.438943 6.629005 10657.5 10811.6 10770.7 10802.8 10524.2 10289 10394.4
19990 19990 0.500000 11387.5 8.803439 6.302049 6.405864 14442.2 14618.2 14527.4 14424.3 13980.3 14007.1 14249.2
19992 19992 0.500000 12752 8.795813 6.238910 6.298883 16303.9 15741.6 16371.1 16418.3 15851.8 15855.1 15622.1
19994 19994 0.500000 14663.8 8.779115 6.153171 6.159089 18373.8 18532.8 18625.5 18726.8 18202.1 18092.8 18181
19996 19996 0.500000 17094.7 8.772627 6.047409 5.975638 21731.2 21387.1 21836.8 22097.5 21020.1 20857.6 21035.5
19997.9 19998 0.500000 20592.5 8.761868 5.894598 5.705883 25971.4 25726.1 26298.6 26469.3 25404.1 25002.6 25556.4
19999.9 20000 0.500000 26101.1 8.749883 5.654279 5.259306 32763 32691.8 33373.6 33621.6 31934.1 31784.3 32212.9
20002 20002 0.500000 35452 8.739776 5.245544 4.536851 44678 44487.1 45013.6 45267.9 43155.2 43372.8 43868.1
20004 20004 0.500000 53449.6 8.727180 4.477283 3.488880 67537.8 66744.9 67091.8 68197.3 65561.4 65637.9 65693.4
20006 20006 0.500000 80212.4 8.719947 3.321743 2.347012 100802 100405 99760.7 102293 97696.8 98924.2 99565.1
20007.9 20008 0.500000 102841 8.705096 2.333262 1.481826 128790 128279 127720 131009 124767 126874 127802
20009.9 20010 0.500000 104145 8.693491 2.252312 1.278976 130459 129895 129062 132753 126187 128100 128929
20011.9 20012 0.500000 92469.7 8.681845 2.743316 1.402000 115477 115408 115041 117713 111626 113661 113882
20014 20014 0.500000 86600.5 8.696125 2.998489 1.357248 108670 107714 107293 110935 105562 106365 106549
20016 20016 0.500000 89734.6 8.682855 2.866427 1.124433 111965 111641 112048 114258 109013 109677 110550
20018 20018 0.500000 98162.9 8.674628 2.514189 0.883684 122337 121676 121995 124964 119007 120013 121534
20019.9 20020 0.500000 111048 8.662029 1.992237 0.667882 138654 138055 137454 141330 134678 134653 137074
20021.9 20022 0.500000 125234 8.652756 1.431926 0.486156 156394 155396 154024 159264 150752 153125 154662
20024 20024 0.500000 136255 8.644275 1.020530 0.363442 169687 169281 167525 173046 163676 166859 167748
20027.5 20027.5 1.000000 141641 17.2605 1.661255 0.596693 352296 350556 345963 359363 339557 347062 349996
20031.8 20031.8 1.000000 140357 17.2237 1.766308 0.614909 348560 347294 342751 355528 335776 341964 345590
20036.4 20036.4 1.000000 146469 17.1821 1.381952 0.477113 363127 361586 356680 369275 349385 357109 359482
20041.3 20041.3 1.000000 151064 17.1453 1.101201 0.361364 372790 372371 367261 379992 359465 367534 370621
20046.5 20046.5 1.000000 153029 17.1028 1.004319 0.310885 377940 376045 370659 384387 361969 371821 374412
20052 20052 1.000000 150002 17.0548 1.178646 0.387047 368571 366749 363212 376009 354992 362537 366189
20057.8 20057.8 1.000000 147353 17.0106 1.338736 0.473422 361403 359921 355996 369057 347340 355717 357124
20063.9 20063.9 1.000000 145604 16.9623 1.445162 0.503757 355212 355013 350390 362284 342105 350893 353868
20070.4 20070.3 1.000000 143718 16.9044 1.581433 0.545246 350760 348608 344831 356118 337483 345306 346367
20077.1 20077 1.000000 140084 16.8587 1.808522 0.638765 340458 339143 335594 346268 328192 334594 337380
20084.1 20084.1 1.000000 139816 16.8046 1.844840 0.638713 338770 336947 333994 344258 326305 332893 336389
20091.4 20091.4 1.000000 139534 16.7408 1.874790 0.619229 336784 335924 332057 342934 324084 331154 332973
20099 20099 1.000000 141928 16.6855 1.726802 0.604041 341570 339272 335735 347580 329678 335521 338779
20107 20107 1.000000 144056 16.6209 1.604753 0.570369 345416 342717 339728 351538 332891 340388 341663
20115.3 20115.2 1.000000 145187 16.5581 1.548717 0.544970 346521 345369 341096 351800 334295 340722 344221
20123.8 20123.8 1.000000 145730 16.4895 1.527223 0.530481 346901 345506 340498 352880 333643 340325 343259
20132.6 20132.7 1.000000 146884 16.4178 1.456960 0.492225 347498 345602 341877 353776 335381 342275 345099
20141.9 20141.8 1.000000 146606 16.3477 1.483828 0.520256 346165 343738 339339 351516 332985 339590 343342
20151.3 20151.3 1.000000 146451 16.3218 1.520182 0.556999 343896 343556 339193 351452 331213 339407 341629
20161.1 20161 1.000000 145467 16.2484 1.582377 0.583547 341099 339451 335640 346194 328674 334990 337550
20171.1 20171.1 1.000000 144187 16.1567 1.659870 0.600294 336291 334420 330959 341004 324031 329574 333304
20181.5 20181.5 1.000000 143929 16.0715 1.694281 0.610547 333142 331880 328637 339993 321087 327290 331125
20192.2 20192.2 1.000000 144479 15.9877 1.684796 0.582557 332590 330726 328465 339656 321235 327330 329876
20203.1 20203.2 1.000000 144537 15.8935 1.687879 0.580332 331016 329817 325799 337902 318894 326180 327589
20214.5 20214.5 1.000000 145071 15.7995 1.672860 0.634317 330081 329158 325896 336459 318612 324592 327248
20226.1 20226.1 1.000000 145464 15.7134 1.662654 0.640697 329530 327162 324825 335915 317557 323863 326894
20237.9 20238 1.000000 146250 15.6086 1.627191 0.615535 328459 327007 324897 334698 317436 324013 326248
20250.3 20250.2 1.000000 147255 15.4893 1.591590 0.581136 329587 327058 324323 334532 317049 323496 324826
20262.8 20262.7 1.000000 147300 15.3879 1.592456 0.567915 325366 325205 323507 332473 315403 320686 324006
20275.5 20275.5 1.000000 147256 15.2749 1.604229 0.573883 324761 322342 319278 328754 313500 318066 322612
20288.7 20288.7 1.000000 147277 15.1785 1.619803 0.603238 322072 320156 317647 327413 311352 316856 319957
20302.2 20302.1 1.000000 147555 15.0777 1.622696 0.628996 320495 319116 316629 326617 309253 315316 317352
20315.8 20315.8 1.000000 147637 14.9595 1.629485 0.629492 318726 316404 313617 323835 307213 313338 315447
20329.9 20329.8 1.000000 147570 14.8556 1.643858 0.612877 316088 314321 311477 321594 304512 310697 313549
20344.2 20344.2 1.000000 147641 14.7437 1.647427 0.605021 313451 312599 310211 318917 302780 308394 310436
20358.9 20358.8 1.000000 148264 14.6806 1.638585 0.610992 313793 312125 310008 318396 303192 308305 310789
20373.8 20373.8 1.000000 149030 14.557 1.616598 0.609982 312854 311239 308256 318523 300852 307628 310079
20389.1 20389 1.000000 149417 14.445 1.602939 0.618620 310838 309636 306516 316999 300398 304832 309109
20404.6 20404.6 1.000000 149903 14.3297 1.600366 0.619468 309879 308542 305035 314439 298725 304543 306909
20420.6 20420.5 1.000000 150249 14.212 1.592083 0.610594 306861 307050 303650 313101 296683 303025 304964
20436.7 20436.7 1.000000 150711 14.0939 1.590660 0.612400 306262 304634 302377 310880 295611 300571 303771
20453.2 20453.1 1.000000 150770 13.9759 1.594419 0.608458 303340 301606 299906 307938 293541 299731 301086
20470 20469.9 1.000000 151175 13.8502 1.598718 0.612863 301718 300562 298301 306146 291867 295888 299322
20487 20487 1.000000 151352 13.7239 1.602293 0.625134 299498 297685 295390 303457 289233 294688 297180
20504.4 20504.4 1.000000 151684 13.5928 1.596428 0.624080 297760 295558 293767 301398 286855 291435 295038
20522.1 20522.1 1.000000 152142 13.3813 1.578483 0.618522 293550 291498 290493 297509 283495 288918 290387
20540.1 20540.1 1.000000 152518 13.3653 1.584462 0.624321 293842 292547 290178 298939 283615 287746 291575
20558.4 20558.4 1.000000 153123 13.2214 1.573254 0.619386 291480 290006 287615 296814 282677 286461 289446
20577 20577 1.000000 153925 12.8234 1.529962 0.603093 284241 282648 280896 289366 274931 279352 282408
20596 20595.9 1.000000 154184 12.9589 1.552342 0.605761 288813 286159 284049 292690 277756 283890 284688
20615.2 20615.1 1.000000 154506 12.8079 1.545070 0.615500 285046 283557 281669 290221 275719 280430 282250
20634.8 20634.7 1.000000 155135 12.6835 1.545115 0.619643 282788 282730 280216 288612 273999 278514 280794
20654.6 20654.5 1.000000 155389 12.537 1.540378 0.622195 280622 279201 277114 285089 271257 276417 278414
20674.6 20674.6 1.000000 156373 12.1505 1.505520 0.604860 274426 272496 270652 277735 264782 268826 271090
20695.1 20695.1 1.000000 156187 12.281 1.535439 0.618417 276600 274542 273741 280860 267180 271035 274164
20715.8 20715.8 1.000000 156649 12.137 1.529202 0.613999 273389 273008 270447 278123 265319 270004 270957
20736.9 20736.8 1.000000 157367 12.0171 1.523469 0.617595 271869 271299 269739 276916 263682 267239 270351
20742.3 20742.2 1.000000 157313 11.9863 1.521623 0.618361 271711 270667 268440 275730 261943 267952 269158